type,word,colour,correct_key,trialsStroop.thisRepN,trialsStroop.thisTrialN,trialsStroop.thisN,trialsStroop.thisIndex,thisRow.t,notes,WelcomeScreen.started,WelcomeMessage.started,keywelcome.started,WelcomeScreen.stopped,keywelcome.keys,keywelcome.rt,keywelcome.duration,blank500.started,textBlank500.started,polygon.started,textBlank500.stopped,polygon.stopped,blank500.stopped,Strooptrial.started,textStroopWord.started,keyStroop.started,Strooptrial.stopped,keyStroop.keys,keyStroop.corr,keyStroop.rt,keyStroop.duration,GoodbyeScreen.started,Goodbye.started,key_Goodbye.started,GoodbyeScreen.stopped,key_Goodbye.keys,key_Goodbye.rt,key_Goodbye.duration,participant,session,date,expName,psychopyVersion,frameRate,expStart,
,,,,,,,,,,0.029483400052413344,0.044524500030092895,0.044524500030092895,1.9627287000184879,space,1.9107164000160992,None,,,,,,,,,,,,,,,,,,,,,,0d000721,002,2024-05-22_09h57.06.000,stroop,2023.2.3,60.00214807928742,2024-05-22 09h57.20.551340 +0800,
congruent,YELLOW,yellow,y,0,0,0,11,2.478953600046225,,,,,,,,,3.264270900050178,3.278271700022742,3.278271700022742,3.778714400017634,3.778714400017634,3.762770800036378,2.4734081000788137,2.478953600046225,2.478953600046225,3.2634224999928847,y,1,0.7720502000302076,None,,,,,,,,0d000721,002,2024-05-22_09h57.06.000,stroop,2023.2.3,60.00214807928742,2024-05-22 09h57.20.551340 +0800,
congruent,YELLOW,yellow,y,0,1,1,19,3.778714400017634,,,,,,,,,4.296235200017691,4.310826200060546,4.310826200060546,4.811609300086275,4.811609300086275,4.79565020010341,3.763167900033295,3.778714400017634,3.778714400017634,4.295721500064246,y,1,0.511954199988395,None,,,,,,,,0d000721,002,2024-05-22_09h57.06.000,stroop,2023.2.3,60.00214807928742,2024-05-22 09h57.20.551340 +0800,
congruent,RED,red,r,0,2,2,8,4.811609300086275,,,,,,,,,5.463106300099753,5.478219200042076,5.478219200042076,5.978727500070818,5.978727500070818,5.962653900031,4.796237100032158,4.811609300086275,4.811609300086275,5.462641700054519,r,1,0.6475179000990465,None,,,,,,,,0d000721,002,2024-05-22_09h57.06.000,stroop,2023.2.3,60.00214807928742,2024-05-22 09h57.20.551340 +0800,
congruent,RED,red,r,0,3,3,0,5.978727500070818,,,,,,,,,6.43001400004141,6.445365900057368,6.445365900057368,6.9450083000119776,6.9450083000119776,6.929550700006075,5.963040400063619,5.978727500070818,5.978727500070818,6.429585800040513,r,1,0.4405982999596745,None,,,,,,,,0d000721,002,2024-05-22_09h57.06.000,stroop,2023.2.3,60.00214807928742,2024-05-22 09h57.20.551340 +0800,
congruent,GREEN,green,g,0,4,4,18,6.9450083000119776,,,,,,,,,7.513128700084053,7.528247400070541,7.528247400070541,8.028109600069001,8.028109600069001,8.011845000088215,6.929931099992245,6.9450083000119776,6.9450083000119776,7.512721300008707,g,1,0.5616531999548897,None,,,,,,,,0d000721,002,2024-05-22_09h57.06.000,stroop,2023.2.3,60.00214807928742,2024-05-22 09h57.20.551340 +0800,
congruent,BLUE,blue,b,0,5,5,1,8.028109600069001,,,,,,,,,8.513107100035995,8.52822840004228,8.52822840004228,9.028580800048076,9.028580800048076,9.012078700005077,8.012121300096624,8.028109600069001,8.028109600069001,8.512625400093384,b,1,0.4707621999550611,None,,,,,,,,0d000721,002,2024-05-22_09h57.06.000,stroop,2023.2.3,60.00214807928742,2024-05-22 09h57.20.551340 +0800,
incongruent,GREEN,red,r,0,6,6,22,9.028580800048076,,,,,,,,,9.713839300093241,9.756424500024877,9.756424500024877,,,10.228950800024904,9.01234740007203,9.028580800048076,9.028580800048076,9.713467700057663,r,1,0.6702948999591172,None,,,,,,,,0d000721,002,2024-05-22_09h57.06.000,stroop,2023.2.3,60.00214807928742,2024-05-22 09h57.20.551340 +0800,
congruent,BLUE,blue,b,0,7,7,9,10.245037600048818,,,,,,,,,11.112770100007765,11.128103800001554,11.128103800001554,11.628630400053225,11.628630400053225,11.61297740007285,10.229400300071575,10.245037600048818,10.245037600048818,11.112528500030749,b,1,0.8618670998839661,None,,,,,,,,0d000721,002,2024-05-22_09h57.06.000,stroop,2023.2.3,60.00214807928742,2024-05-22 09h57.20.551340 +0800,
incongruent,RED,yellow,y,0,8,8,20,11.628630400053225,,,,,,,,,13.149360300041735,13.161533600068651,13.161533600068651,13.662180799990892,13.662180799990892,13.646145100006834,11.613371000043117,11.628630400053225,11.628630400053225,13.148539500078186,y,1,1.5106111000059173,None,,,,,,,,0d000721,002,2024-05-22_09h57.06.000,stroop,2023.2.3,60.00214807928742,2024-05-22 09h57.20.551340 +0800,
congruent,BLUE,blue,b,0,9,9,17,13.662180799990892,,,,,,,,,14.663481700001284,14.678592200041749,14.678592200041749,15.178840200067498,15.178840200067498,15.163267099997029,13.64656670007389,13.662180799990892,13.662180799990892,14.66298350004945,b,1,0.9968591999495402,None,,,,,,,,0d000721,002,2024-05-22_09h57.06.000,stroop,2023.2.3,60.00214807928742,2024-05-22 09h57.20.551340 +0800,
congruent,YELLOW,yellow,y,0,10,10,3,15.178840200067498,,,,,,,,,15.84690220002085,15.86102710000705,15.86102710000705,16.362589900032617,16.362589900032617,16.345455400063656,15.16372599999886,15.178840200067498,15.178840200067498,15.84635570005048,y,1,0.6646118999924511,None,,,,,,,,0d000721,002,2024-05-22_09h57.06.000,stroop,2023.2.3,60.00214807928742,2024-05-22 09h57.20.551340 +0800,
incongruent,YELLOW,red,r,0,11,11,15,16.362589900032617,,,,,,,,,16.89593540003989,16.91095510008745,16.91095510008745,17.412034000037238,17.412034000037238,17.396141900098883,16.345966599998064,16.362589900032617,16.362589900032617,16.89540790009778,r,1,0.5200773000251502,None,,,,,,,,0d000721,002,2024-05-22_09h57.06.000,stroop,2023.2.3,60.00214807928742,2024-05-22 09h57.20.551340 +0800,
incongruent,BLUE,yellow,y,0,12,12,13,17.412034000037238,,,,,,,,,18.180884600034915,18.19515040004626,18.19515040004626,18.69510590005666,18.69510590005666,18.679172500036657,17.396977700060233,17.412034000037238,17.412034000037238,18.18039650004357,y,1,0.7668000999838114,None,,,,,,,,0d000721,002,2024-05-22_09h57.06.000,stroop,2023.2.3,60.00214807928742,2024-05-22 09h57.20.551340 +0800,
incongruent,YELLOW,blue,b,0,13,13,23,18.69510590005666,,,,,,,,,19.562988899997436,19.577598400064744,19.577598400064744,20.078672100091353,20.078672100091353,20.062955300090834,18.679516300093383,18.69510590005666,18.69510590005666,19.56231100007426,b,1,0.8603900000452995,None,,,,,,,,0d000721,002,2024-05-22_09h57.06.000,stroop,2023.2.3,60.00214807928742,2024-05-22 09h57.20.551340 +0800,
congruent,GREEN,green,g,0,14,14,2,20.078672100091353,,,,,,,,,20.96248290000949,20.97817410004791,20.97817410004791,21.4788168000523,21.4788168000523,21.462777200038545,20.063747100066394,20.078672100091353,20.078672100091353,20.962184500065632,g,1,0.8694714000448585,None,,,,,,,,0d000721,002,2024-05-22_09h57.06.000,stroop,2023.2.3,60.00214807928742,2024-05-22 09h57.20.551340 +0800,
incongruent,GREEN,yellow,y,0,15,15,6,21.4788168000523,,,,,,,,,21.946231300011277,21.961516999988817,21.961516999988817,22.461788900080137,22.461788900080137,22.44617280003149,21.4631825000979,21.4788168000523,21.4788168000523,21.94591410004068,y,1,0.45993749995250255,None,,,,,,,,0d000721,002,2024-05-22_09h57.06.000,stroop,2023.2.3,60.00214807928742,2024-05-22 09h57.20.551340 +0800,
incongruent,YELLOW,green,g,0,16,16,7,22.461788900080137,,,,,,,,,23.048060600063764,23.06159210007172,23.06159210007172,23.56220210005995,23.56220210005995,23.546311100013554,22.44658139999956,22.461788900080137,22.461788900080137,23.047531399992295,g,1,0.5814965000608936,None,,,,,,,,0d000721,002,2024-05-22_09h57.06.000,stroop,2023.2.3,60.00214807928742,2024-05-22 09h57.20.551340 +0800,
congruent,GREEN,green,g,0,17,17,10,23.56220210005995,,,,,,,,,24.113231700030155,24.128177700098604,24.128177700098604,24.62894470000174,24.62894470000174,24.612868200056255,23.54675760003738,23.56220210005995,23.56220210005995,24.112968000001274,g,1,0.537026800098829,None,,,,,,,,0d000721,002,2024-05-22_09h57.06.000,stroop,2023.2.3,60.00214807928742,2024-05-22 09h57.20.551340 +0800,
incongruent,GREEN,blue,b,0,18,18,14,24.62894470000174,,,,,,,,,25.096327000064775,25.111597900046036,25.111597900046036,25.611877100076526,25.611877100076526,25.596121500013396,24.61326100002043,24.62894470000174,24.62894470000174,25.096051800064743,g,0,0.46211379999294877,None,,,,,,,,0d000721,002,2024-05-22_09h57.06.000,stroop,2023.2.3,60.00214807928742,2024-05-22 09h57.20.551340 +0800,
incongruent,RED,green,g,0,19,19,12,25.611877100076526,,,,,,,,,26.74745550006628,26.76182560005691,26.76182560005691,27.26181669998914,27.26181669998914,27.246304400032386,25.59651520010084,25.611877100076526,25.611877100076526,26.746840200037695,g,1,1.1275037999730557,None,,,,,,,,0d000721,002,2024-05-22_09h57.06.000,stroop,2023.2.3,60.00214807928742,2024-05-22 09h57.20.551340 +0800,
incongruent,BLUE,green,g,0,20,20,21,27.26181669998914,,,,,,,,,27.87975120008923,27.895034300046973,27.895034300046973,28.395351300016046,28.395351300016046,28.37965720007196,27.246690700063482,27.26181669998914,27.26181669998914,27.879347800044343,g,1,0.613135899999179,None,,,,,,,,0d000721,002,2024-05-22_09h57.06.000,stroop,2023.2.3,60.00214807928742,2024-05-22 09h57.20.551340 +0800,
incongruent,RED,blue,b,0,21,21,4,28.395351300016046,,,,,,,,,29.646911700023338,29.6617666000966,29.6617666000966,30.161919800098985,30.161919800098985,30.14688630006276,28.380139700020663,28.395351300016046,28.395351300016046,29.646504800068215,b,1,1.2395718999905512,None,,,,,,,,0d000721,002,2024-05-22_09h57.06.000,stroop,2023.2.3,60.00214807928742,2024-05-22 09h57.20.551340 +0800,
incongruent,BLUE,red,r,0,22,22,5,30.161919800098985,,,,,,,,,31.180507000070065,31.19526270008646,31.19526270008646,31.695215600077063,31.695215600077063,31.679513700073585,30.147381599992514,30.161919800098985,30.161919800098985,31.180042500025593,r,1,1.0094746999675408,None,,,,,,,,0d000721,002,2024-05-22_09h57.06.000,stroop,2023.2.3,60.00214807928742,2024-05-22 09h57.20.551340 +0800,
congruent,RED,red,r,0,23,23,16,31.695215600077063,,,,,,,,,32.181048800004646,32.19521939998958,32.19521939998958,32.69520920002833,32.69520920002833,32.67949300003238,31.679885199991986,31.695215600077063,31.695215600077063,32.18056210002396,r,1,0.4835779999848455,None,,,,,,,,0d000721,002,2024-05-22_09h57.06.000,stroop,2023.2.3,60.00214807928742,2024-05-22 09h57.20.551340 +0800,
congruent,BLUE,blue,b,1,0,24,1,32.69520920002833,,,,,,,,,33.49646970001049,33.51197540003341,33.51197540003341,34.01194240001496,34.01194240001496,33.99608100007754,32.679885899997316,32.69520920002833,32.69520920002833,33.49606140004471,b,1,0.7962067999178544,None,,,,,,,,0d000721,002,2024-05-22_09h57.06.000,stroop,2023.2.3,60.00214807928742,2024-05-22 09h57.20.551340 +0800,
incongruent,RED,blue,b,1,1,25,4,34.01194240001496,,,,,,,,,34.53063320007641,34.54512180003803,34.54512180003803,35.04503190005198,35.04503190005198,35.02948750008363,33.996480100089684,34.01194240001496,34.01194240001496,34.53007070010062,b,1,0.5033703999361023,None,,,,,,,,0d000721,002,2024-05-22_09h57.06.000,stroop,2023.2.3,60.00214807928742,2024-05-22 09h57.20.551340 +0800,
congruent,YELLOW,yellow,y,1,2,26,11,35.04503190005198,,,,,,,,,35.54792410007212,35.562028800020926,35.562028800020926,36.06174620008096,36.06174620008096,36.04552889999468,35.02983600005973,35.04503190005198,35.04503190005198,35.54719990002923,y,1,0.4941140000009909,None,,,,,,,,0d000721,002,2024-05-22_09h57.06.000,stroop,2023.2.3,60.00214807928742,2024-05-22 09h57.20.551340 +0800,
congruent,RED,red,r,1,3,27,8,36.06174620008096,,,,,,,,,36.66302269999869,36.67861050006468,36.67861050006468,,,37.16367700009141,36.04584700008854,36.06174620008096,36.06174620008096,36.66261940007098,r,1,0.597343200002797,None,,,,,,,,0d000721,002,2024-05-22_09h57.06.000,stroop,2023.2.3,60.00214807928742,2024-05-22 09h57.20.551340 +0800,
incongruent,GREEN,yellow,y,1,4,28,6,37.17857900005765,,,,,,,,,38.11272130010184,38.12835160002578,38.12835160002578,38.62889210006688,38.62889210006688,38.612686500069685,37.1645598000614,37.17857900005765,37.17857900005765,38.11245770007372,g,0,0.9202356000896543,None,,,,,,,,0d000721,002,2024-05-22_09h57.06.000,stroop,2023.2.3,60.00214807928742,2024-05-22 09h57.20.551340 +0800,
incongruent,GREEN,blue,b,1,5,29,14,38.62889210006688,,,,,,,,,40.580241700052284,40.59495699999388,40.59495699999388,41.09595089999493,41.09595089999493,41.08027690008748,38.613054000074044,38.62889210006688,38.62889210006688,40.57975040003657,b,1,1.9345157999778166,None,,,,,,,,0d000721,002,2024-05-22_09h57.06.000,stroop,2023.2.3,60.00214807928742,2024-05-22 09h57.20.551340 +0800,
incongruent,GREEN,red,r,1,6,30,22,41.09595089999493,,,,,,,,,43.27968610008247,43.29509870009497,43.29509870009497,43.79523839999456,43.79523839999456,43.779460299992934,41.08076160005294,41.09595089999493,41.09595089999493,43.279305900097825,r,1,2.1706461999565363,None,,,,,,,,0d000721,002,2024-05-22_09h57.06.000,stroop,2023.2.3,60.00214807928742,2024-05-22 09h57.20.551340 +0800,
incongruent,YELLOW,red,r,1,7,31,15,43.79523839999456,,,,,,,,,44.947580600040965,44.961962200002745,44.961962200002745,45.46222410001792,45.46222410001792,45.44618289999198,43.77983610006049,43.79523839999456,43.79523839999456,44.94710099999793,r,1,1.135839099995792,None,,,,,,,,0d000721,002,2024-05-22_09h57.06.000,stroop,2023.2.3,60.00214807928742,2024-05-22 09h57.20.551340 +0800,
congruent,YELLOW,yellow,y,1,8,32,19,45.46222410001792,,,,,,,,,46.02992180001456,46.04465880000498,46.04465880000498,46.54616370005533,46.54616370005533,46.529306999989785,45.446592900087126,45.46222410001792,45.46222410001792,46.0294516000431,y,1,0.5570597000187263,None,,,,,,,,0d000721,002,2024-05-22_09h57.06.000,stroop,2023.2.3,60.00214807928742,2024-05-22 09h57.20.551340 +0800,
incongruent,YELLOW,green,g,1,9,33,7,46.54616370005533,,,,,,,,,47.963289600098506,47.97850359999575,47.97850359999575,48.47861130000092,48.47861130000092,48.46278310008347,46.52987910003867,46.54616370005533,46.54616370005533,47.9628481999971,g,1,1.4093268000287935,None,,,,,,,,0d000721,002,2024-05-22_09h57.06.000,stroop,2023.2.3,60.00214807928742,2024-05-22 09h57.20.551340 +0800,
congruent,BLUE,blue,b,1,10,34,9,48.47861130000092,,,,,,,,,48.94708620000165,48.962042800034396,48.962042800034396,49.46193480002694,49.46193480002694,49.44621230009943,48.463154099998064,48.47861130000092,48.47861130000092,48.946600800030865,b,1,0.452765200054273,None,,,,,,,,0d000721,002,2024-05-22_09h57.06.000,stroop,2023.2.3,60.00214807928742,2024-05-22 09h57.20.551340 +0800,
incongruent,RED,green,g,1,11,35,12,49.46193480002694,,,,,,,,,50.046461799996905,50.0621743000811,50.0621743000811,50.562324900063686,50.562324900063686,50.54631630005315,49.44658770004753,49.46193480002694,49.46193480002694,50.046083500026725,g,1,0.5729282000102103,None,,,,,,,,0d000721,002,2024-05-22_09h57.06.000,stroop,2023.2.3,60.00214807928742,2024-05-22 09h57.20.551340 +0800,
incongruent,RED,yellow,y,1,12,36,20,50.562324900063686,,,,,,,,,51.31334280001465,51.32847579999361,51.32847579999361,51.82899740000721,51.82899740000721,51.81288520002272,50.54673860000912,50.562324900063686,50.562324900063686,51.31294130010065,y,1,0.7372513000154868,None,,,,,,,,0d000721,002,2024-05-22_09h57.06.000,stroop,2023.2.3,60.00214807928742,2024-05-22 09h57.20.551340 +0800,
congruent,GREEN,green,g,1,13,37,10,51.82899740000721,,,,,,,,,52.96337470004801,52.97847600001842,52.97847600001842,53.47865800000727,53.47865800000727,53.46408579999115,51.81326950003859,51.82899740000721,51.82899740000721,52.96300820005126,g,1,1.1177800999721512,None,,,,,,,,0d000721,002,2024-05-22_09h57.06.000,stroop,2023.2.3,60.00214807928742,2024-05-22 09h57.20.551340 +0800,
incongruent,BLUE,yellow,y,1,14,38,13,53.47865800000727,,,,,,,,,54.829939100076444,54.8454558000667,54.8454558000667,55.34556740010157,55.34556740010157,55.32957030006219,53.46467220003251,53.47865800000727,53.47865800000727,54.829522100044414,y,1,1.3409745000535622,None,,,,,,,,0d000721,002,2024-05-22_09h57.06.000,stroop,2023.2.3,60.00214807928742,2024-05-22 09h57.20.551340 +0800,
congruent,BLUE,blue,b,1,15,39,17,55.34556740010157,,,,,,,,,56.34815990005154,56.36216370004695,56.36216370004695,56.86200530000497,56.86200530000497,56.846184300025925,55.329939900082536,55.34556740010157,55.34556740010157,56.34760890004691,b,1,0.9940316999563947,None,,,,,,,,0d000721,002,2024-05-22_09h57.06.000,stroop,2023.2.3,60.00214807928742,2024-05-22 09h57.20.551340 +0800,
congruent,YELLOW,yellow,y,1,16,40,3,56.86200530000497,,,,,,,,,57.397529200068675,57.411934700096026,57.411934700096026,57.91234030004125,57.91234030004125,57.896104100043885,56.84653450001497,56.86200530000497,56.86200530000497,57.397068400052376,y,1,0.5171365999849513,None,,,,,,,,0d000721,002,2024-05-22_09h57.06.000,stroop,2023.2.3,60.00214807928742,2024-05-22 09h57.20.551340 +0800,
incongruent,YELLOW,blue,b,1,17,41,23,57.91234030004125,,,,,,,,,58.46523359999992,58.47903560008854,58.47903560008854,58.978701100102626,58.978701100102626,58.96330350008793,57.89647660008632,57.91234030004125,57.91234030004125,58.46465950005222,y,0,0.5391661999747157,None,,,,,,,,0d000721,002,2024-05-22_09h57.06.000,stroop,2023.2.3,60.00214807928742,2024-05-22 09h57.20.551340 +0800,
congruent,RED,red,r,1,18,42,0,58.978701100102626,,,,,,,,,59.647579300100915,59.66208480007481,59.66208480007481,60.16240220004693,60.16240220004693,60.14629669999704,58.96365620009601,58.978701100102626,58.978701100102626,59.64713960001245,r,1,0.6564703000476584,None,,,,,,,,0d000721,002,2024-05-22_09h57.06.000,stroop,2023.2.3,60.00214807928742,2024-05-22 09h57.20.551340 +0800,
congruent,GREEN,green,g,1,19,43,18,60.16240220004693,,,,,,,,,60.9463909000624,60.962252099998295,60.962252099998295,61.462025100016035,61.462025100016035,61.44628900010139,60.1467783000553,60.16240220004693,60.16240220004693,60.94601340009831,g,1,0.7688108999282122,None,,,,,,,,0d000721,002,2024-05-22_09h57.06.000,stroop,2023.2.3,60.00214807928742,2024-05-22 09h57.20.551340 +0800,
incongruent,BLUE,red,r,1,20,44,5,61.462025100016035,,,,,,,,,62.167702900012955,62.17880220001098,62.17880220001098,62.67948220006656,62.67948220006656,62.66294680000283,61.44666380004492,61.462025100016035,61.462025100016035,62.16596450004727,r,1,0.7015933999791741,None,,,,,,,,0d000721,002,2024-05-22_09h57.06.000,stroop,2023.2.3,60.00214807928742,2024-05-22 09h57.20.551340 +0800,
incongruent,BLUE,green,g,1,21,45,21,62.67948220006656,,,,,,,,,64.9297980000265,64.94574570003897,64.94574570003897,65.44590900000185,65.44590900000185,65.42986230005044,62.663319600047544,62.67948220006656,62.67948220006656,64.92944219999481,g,1,2.2351514999754727,None,,,,,,,,0d000721,002,2024-05-22_09h57.06.000,stroop,2023.2.3,60.00214807928742,2024-05-22 09h57.20.551340 +0800,
congruent,RED,red,r,1,22,46,16,65.44590900000185,,,,,,,,,66.0299706000369,66.04539030010346,66.04539030010346,66.5454308000626,66.5454308000626,66.52967110008467,65.43030830007046,65.44590900000185,65.44590900000185,66.02956560009625,r,1,0.5733783000614494,None,,,,,,,,0d000721,002,2024-05-22_09h57.06.000,stroop,2023.2.3,60.00214807928742,2024-05-22 09h57.20.551340 +0800,
congruent,GREEN,green,g,1,23,47,2,66.5454308000626,,,,,,,,,67.34790340007748,67.36208150000311,67.36208150000311,67.86242250003852,67.86242250003852,67.84619670000393,66.53005040006246,66.5454308000626,66.5454308000626,67.34729700000025,g,1,0.7861914999084547,None,,,,,,,,0d000721,002,2024-05-22_09h57.06.000,stroop,2023.2.3,60.00214807928742,2024-05-22 09h57.20.551340 +0800,
,,,,,,,,,,,,,,,,,,,,,,,,,,,,,,,67.84627300000284,67.86242250003852,67.86242250003852,68.44670890003908,space,0.5725665999343619,None,0d000721,002,2024-05-22_09h57.06.000,stroop,2023.2.3,60.00214807928742,2024-05-22 09h57.20.551340 +0800,
