Dotsspeed,Dotsdirec,Dotscoherence,DotsNum,corrAns,trialsRDK.thisRepN,trialsRDK.thisTrialN,trialsRDK.thisN,trialsRDK.thisIndex,thisRow.t,notes,WelcomScreen.started,Welcome.started,key_Welcome.started,WelcomScreen.stopped,key_Welcome.keys,key_Welcome.rt,key_Welcome.duration,blank500.started,textBlank500.started,polygon.started,textBlank500.stopped,polygon.stopped,blank500.stopped,RDKtrial.started,dots.started,key_resp.started,RDKtrial.stopped,key_resp.keys,key_resp.corr,key_resp.rt,key_resp.duration,GoodbyeScreen.started,Goodbye.started,key_Goodbye.started,GoodbyeScreen.stopped,key_Goodbye.keys,key_Goodbye.rt,key_Goodbye.duration,participant,session,date,expName,psychopyVersion,frameRate,expStart,
,,,,,,,,,,,0.032305800006724894,0.04737420007586479,0.04737420007586479,1.1318604000844061,space,1.0785368999931961,None,,,,,,,,,,,,,,,,,,,,,,0d000721,001,2024-05-22_09h59.25.221,RDK,2023.2.3,59.999231990013016,2024-05-22 09h59.34.919239 +0800,
0.01,270,0.1,1,left,0,0,0,11,1.6546960000414401,,,,,,,,,6.648824300034903,6.665327500086278,6.665327500086278,1.6546960000414401,1.6546960000414401,7.148351000039838,1.6509420999791473,1.6546960000414401,1.6546960000414401,6.6476404999848455,None,0,,,,,,,,,,0d000721,001,2024-05-22_09h59.25.221,RDK,2023.2.3,59.999231990013016,2024-05-22 09h59.34.919239 +0800,
0.01,180,0.1,1,down,0,1,1,2,7.165138600044884,,,,,,,,,8.60104430001229,8.614692199975252,8.614692199975252,9.11476250004489,9.11476250004489,9.098732499987818,7.148807800025679,7.165138600044884,7.165138600044884,8.599926700000651,right,0,1.432755499961786,None,,,,,,,,0d000721,001,2024-05-22_09h59.25.221,RDK,2023.2.3,59.999231990013016,2024-05-22 09h59.34.919239 +0800,
0.05,180,0.8,1,left,0,2,2,6,9.11476250004489,,,,,,,,,9.766657800064422,9.781488500069827,9.781488500069827,10.281292999978177,10.281292999978177,10.265238999971189,9.099144199979492,9.11476250004489,9.11476250004489,9.765792799997143,left,1,0.635064100031741,None,,,,,,,,0d000721,001,2024-05-22_09h59.25.221,RDK,2023.2.3,59.999231990013016,2024-05-22 09h59.34.919239 +0800,
0.01,0,0.1,1,right,0,3,3,8,10.281292999978177,,,,,,,,,12.65112360008061,12.665559299988672,12.665559299988672,13.165009999996983,13.165009999996983,13.148763200035319,10.265641000005417,10.281292999978177,10.281292999978177,12.650321600027382,up,0,2.364958000020124,None,,,,,,,,0d000721,001,2024-05-22_09h59.25.221,RDK,2023.2.3,59.999231990013016,2024-05-22 09h59.34.919239 +0800,
0.01,180,0.1,1,down,0,4,4,10,13.165009999996983,,,,,,,,,15.649154999991879,15.664847300038673,15.664847300038673,16.164878500043415,16.164878500043415,16.148871900048107,13.149192900047638,13.165009999996983,13.165009999996983,15.648427300038747,left,0,2.4726597000844777,None,,,,,,,,0d000721,001,2024-05-22_09h59.25.221,RDK,2023.2.3,59.999231990013016,2024-05-22 09h59.34.919239 +0800,
0.01,270,0.1,1,left,0,5,5,3,16.164878500043415,,,,,,,,,17.447738700080663,17.463990200078115,17.463990200078115,17.96444030001294,17.96444030001294,17.947837800020352,16.14929370000027,16.164878500043415,16.164878500043415,17.447498699999414,down,0,1.2813363000750542,None,,,,,,,,0d000721,001,2024-05-22_09h59.25.221,RDK,2023.2.3,59.999231990013016,2024-05-22 09h59.34.919239 +0800,
0.05,90,0.8,1,right,0,6,6,13,17.96444030001294,,,,,,,,,18.581538300029933,18.59733340004459,18.59733340004459,19.09817810007371,19.09817810007371,19.08187950006686,17.94813510007225,17.96444030001294,17.96444030001294,18.581258699996397,up,0,0.6014938000589609,None,,,,,,,,0d000721,001,2024-05-22_09h59.25.221,RDK,2023.2.3,59.999231990013016,2024-05-22 09h59.34.919239 +0800,
0.05,0,0.8,1,up,0,7,7,12,19.09817810007371,,,,,,,,,19.548404500004835,19.564647400053218,19.564647400053218,20.06473039998673,20.06473039998673,20.04844799998682,19.082249899976887,19.09817810007371,19.09817810007371,19.548063799971715,right,0,0.4437316000694409,None,,,,,,,,0d000721,001,2024-05-22_09h59.25.221,RDK,2023.2.3,59.999231990013016,2024-05-22 09h59.34.919239 +0800,
0.05,90,0.8,1,right,0,8,8,5,20.06473039998673,,,,,,,,,20.634672800078988,20.648242500028573,20.648242500028573,21.148250100086443,21.148250100086443,21.131993300048634,20.0487372999778,20.06473039998673,20.06473039998673,20.633782600052655,up,0,0.5649492000229657,None,,,,,,,,0d000721,001,2024-05-22_09h59.25.221,RDK,2023.2.3,59.999231990013016,2024-05-22 09h59.34.919239 +0800,
0.05,0,0.8,1,up,0,9,9,4,21.148250100086443,,,,,,,,,21.63253599999007,21.648770999978296,21.648770999978296,22.14820400008466,22.14820400008466,22.132142400019802,21.132400200003758,21.148250100086443,21.148250100086443,21.63192379998509,right,0,0.47395820007659495,None,,,,,,,,0d000721,001,2024-05-22_09h59.25.221,RDK,2023.2.3,59.999231990013016,2024-05-22 09h59.34.919239 +0800,
0.05,180,0.8,1,left,0,10,10,14,22.14820400008466,,,,,,,,,22.584061300032772,22.598924400052056,22.598924400052056,23.098197699990124,23.098197699990124,23.081897200085223,22.132541900034994,22.14820400008466,22.14820400008466,22.582987200003117,left,1,0.41828630003146827,None,,,,,,,,0d000721,001,2024-05-22_09h59.25.221,RDK,2023.2.3,59.999231990013016,2024-05-22 09h59.34.919239 +0800,
0.01,0,0.1,1,right,0,11,11,0,23.098197699990124,,,,,,,,,24.065491800080054,24.081692600040697,24.081692600040697,24.58151110005565,24.58151110005565,24.565227100043558,23.08228400000371,23.098197699990124,23.098197699990124,24.06494090007618,right,1,0.9557282000314444,None,,,,,,,,0d000721,001,2024-05-22_09h59.25.221,RDK,2023.2.3,59.999231990013016,2024-05-22 09h59.34.919239 +0800,
0.01,90,0.1,1,up,0,12,12,9,24.58151110005565,,,,,,,,,27.46771500003524,27.481829300057143,27.481829300057143,27.981525400071405,27.981525400071405,27.965575900045224,24.56559130002279,24.58151110005565,24.58151110005565,27.46675999998115,up,1,2.880692399921827,None,,,,,,,,0d000721,001,2024-05-22_09h59.25.221,RDK,2023.2.3,59.999231990013016,2024-05-22 09h59.34.919239 +0800,
0.05,270,0.8,1,down,0,13,13,15,27.981525400071405,,,,,,,,,28.615752600017004,28.632005500025116,28.632005500025116,29.131656100042164,29.131656100042164,29.11558139999397,27.966003100038506,27.981525400071405,27.981525400071405,28.615149500081316,down,1,0.6169191999360919,None,,,,,,,,0d000721,001,2024-05-22_09h59.25.221,RDK,2023.2.3,59.999231990013016,2024-05-22 09h59.34.919239 +0800,
0.01,90,0.1,1,up,0,14,14,1,29.131656100042164,,,,,,,,,29.93229720008094,29.948933699983172,29.948933699983172,30.448476399993524,30.448476399993524,30.432305800030008,29.116003500064835,29.131656100042164,29.131656100042164,29.93172069999855,left,0,0.7943226000061259,None,,,,,,,,0d000721,001,2024-05-22_09h59.25.221,RDK,2023.2.3,59.999231990013016,2024-05-22 09h59.34.919239 +0800,
0.05,270,0.8,1,down,0,15,15,7,30.448476399993524,,,,,,,,,31.000054700067267,31.015106600010768,31.015106600010768,31.514868200058118,31.514868200058118,31.49879530002363,30.43273720005527,30.448476399993524,30.448476399993524,30.999230100074783,down,1,0.5334639999782667,None,,,,,,,,0d000721,001,2024-05-22_09h59.25.221,RDK,2023.2.3,59.999231990013016,2024-05-22 09h59.34.919239 +0800,
0.01,270,0.1,1,left,1,0,16,3,31.514868200058118,,,,,,,,,34.915681799990125,34.93144219997339,34.93144219997339,35.430878999992274,35.430878999992274,35.41453279997222,31.499211100046523,31.514868200058118,31.514868200058118,34.915095400065184,up,0,3.38746620004531,None,,,,,,,,0d000721,001,2024-05-22_09h59.25.221,RDK,2023.2.3,59.999231990013016,2024-05-22 09h59.34.919239 +0800,
0.01,0,0.1,1,right,1,1,17,0,35.430878999992274,,,,,,,,,37.41455540002789,37.431021000025794,37.431021000025794,,,37.91491060005501,35.4147162999725,35.430878999992274,35.430878999992274,37.41436350008007,up,0,1.9827860000077635,None,,,,,,,,0d000721,001,2024-05-22_09h59.25.221,RDK,2023.2.3,59.999231990013016,2024-05-22 09h59.34.919239 +0800,
0.01,180,0.1,1,down,1,2,18,10,37.93179479998071,,,,,,,,,38.86549560003914,38.881642000051215,38.881642000051215,39.381441900040954,39.381441900040954,39.36471880006138,37.9152775000548,37.93179479998071,37.93179479998071,38.86496779997833,left,0,0.9224459000397474,None,,,,,,,,0d000721,001,2024-05-22_09h59.25.221,RDK,2023.2.3,59.999231990013016,2024-05-22 09h59.34.919239 +0800,
0.05,90,0.8,1,right,1,3,19,13,39.381441900040954,,,,,,,,,39.965571800014004,39.98089990008157,39.98089990008157,40.481439299997874,40.481439299997874,40.465257800067775,39.36499999999069,39.381441900040954,39.381441900040954,39.96505250001792,up,0,0.5764215999515727,None,,,,,,,,0d000721,001,2024-05-22_09h59.25.221,RDK,2023.2.3,59.999231990013016,2024-05-22 09h59.34.919239 +0800,
0.05,180,0.8,1,left,1,4,20,14,40.481439299997874,,,,,,,,,40.966099700075574,40.98134990001563,40.98134990001563,41.48147070000414,41.48147070000414,41.46537300001364,40.46564419998322,40.481439299997874,40.481439299997874,40.96530080004595,left,1,0.46861619991250336,None,,,,,,,,0d000721,001,2024-05-22_09h59.25.221,RDK,2023.2.3,59.999231990013016,2024-05-22 09h59.34.919239 +0800,
0.05,0,0.8,1,up,1,5,21,4,41.48147070000414,,,,,,,,,41.89907949999906,41.91609209997114,41.91609209997114,,,42.41566429997329,41.465739500010386,41.48147070000414,41.48147070000414,41.898552200058475,right,0,0.4130733000347391,None,,,,,,,,0d000721,001,2024-05-22_09h59.25.221,RDK,2023.2.3,59.999231990013016,2024-05-22 09h59.34.919239 +0800,
0.05,0,0.8,1,up,1,6,22,12,42.43227690004278,,,,,,,,,42.86642930004746,42.88258089998271,42.88258089998271,,,43.38216380006634,42.41628720005974,42.43227690004278,42.43227690004278,42.865666400059126,right,0,0.4222797999391332,None,,,,,,,,0d000721,001,2024-05-22_09h59.25.221,RDK,2023.2.3,59.999231990013016,2024-05-22 09h59.34.919239 +0800,
0.01,270,0.1,1,left,1,7,23,11,43.398049500072375,,,,,,,,,44.200750500080176,44.21497690002434,44.21497690002434,44.71482790005393,44.71482790005393,44.699037600075826,43.382589400047436,43.398049500072375,43.398049500072375,44.199901000014506,left,1,0.7999390000477433,None,,,,,,,,0d000721,001,2024-05-22_09h59.25.221,RDK,2023.2.3,59.999231990013016,2024-05-22 09h59.34.919239 +0800,
0.01,90,0.1,1,up,1,8,24,1,44.71482790005393,,,,,,,,,47.332606700016186,47.34854150004685,47.34854150004685,47.848240700084716,47.848240700084716,47.8320848000003,44.6994083999889,44.71482790005393,44.71482790005393,47.3319913999876,right,0,2.604214899940416,None,,,,,,,,0d000721,001,2024-05-22_09h59.25.221,RDK,2023.2.3,59.999231990013016,2024-05-22 09h59.34.919239 +0800,
0.05,270,0.8,1,down,1,9,25,15,47.848240700084716,,,,,,,,,48.366127200075425,48.38164640008472,48.38164640008472,48.8814573000418,48.8814573000418,48.865446500014514,47.83249519998208,47.848240700084716,47.848240700084716,48.3654349000426,down,1,0.5096182000124827,None,,,,,,,,0d000721,001,2024-05-22_09h59.25.221,RDK,2023.2.3,59.999231990013016,2024-05-22 09h59.34.919239 +0800,
0.01,0,0.1,1,right,1,10,26,8,48.8814573000418,,,,,,,,,50.298527400009334,50.31427079997957,50.31427079997957,50.81420360004995,50.81420360004995,50.797850999981165,48.86582309997175,48.8814573000418,48.8814573000418,50.29831480002031,right,1,1.4122735999990255,None,,,,,,,,0d000721,001,2024-05-22_09h59.25.221,RDK,2023.2.3,59.999231990013016,2024-05-22 09h59.34.919239 +0800,
0.01,180,0.1,1,down,1,11,27,2,50.81420360004995,,,,,,,,,51.51480220002122,51.5308675999986,51.5308675999986,52.03093580005225,52.03093580005225,52.01446219999343,50.79802930005826,50.81420360004995,50.81420360004995,51.51440950005781,left,0,0.6955464999191463,None,,,,,,,,0d000721,001,2024-05-22_09h59.25.221,RDK,2023.2.3,59.999231990013016,2024-05-22 09h59.34.919239 +0800,
0.05,180,0.8,1,left,1,12,28,6,52.03093580005225,,,,,,,,,52.59895230003167,52.616314799990505,52.616314799990505,,,53.11529580003116,52.014639600063674,52.03093580005225,52.03093580005225,52.59847049997188,left,1,0.5513029999565333,None,,,,,,,,0d000721,001,2024-05-22_09h59.25.221,RDK,2023.2.3,59.999231990013016,2024-05-22 09h59.34.919239 +0800,
0.05,90,0.8,1,right,1,13,29,5,53.132036500028335,,,,,,,,,53.549392500077374,53.565069400006905,53.565069400006905,54.06489959999453,54.06489959999453,54.05014890001621,53.115653600078076,53.132036500028335,53.132036500028335,53.54878399998415,up,0,0.4099441000726074,None,,,,,,,,0d000721,001,2024-05-22_09h59.25.221,RDK,2023.2.3,59.999231990013016,2024-05-22 09h59.34.919239 +0800,
0.05,270,0.8,1,down,1,14,30,7,54.06489959999453,,,,,,,,,54.56662779999897,54.58180799998809,54.58180799998809,55.08570439997129,55.08570439997129,55.0651270999806,54.05083209997974,54.06489959999453,54.06489959999453,54.5658720000647,down,1,0.48508270003367215,None,,,,,,,,0d000721,001,2024-05-22_09h59.25.221,RDK,2023.2.3,59.999231990013016,2024-05-22 09h59.34.919239 +0800,
0.01,90,0.1,1,up,1,15,31,9,55.08570439997129,,,,,,,,,59.73369999998249,59.74782040005084,59.74782040005084,60.24778079998214,60.24778079998214,60.231536200037226,55.06543519999832,55.08570439997129,55.08570439997129,59.7328611999983,left,0,4.6328691999660805,None,,,,,,,,0d000721,001,2024-05-22_09h59.25.221,RDK,2023.2.3,59.999231990013016,2024-05-22 09h59.34.919239 +0800,
0.05,180,0.8,1,left,2,0,32,6,60.24778079998214,,,,,,,,,60.7502713999711,60.765707900049165,60.765707900049165,61.2651412000414,61.2651412000414,61.248925800086,60.2317303000018,60.24778079998214,60.24778079998214,60.749468600028194,left,1,0.494812999968417,None,,,,,,,,0d000721,001,2024-05-22_09h59.25.221,RDK,2023.2.3,59.999231990013016,2024-05-22 09h59.34.919239 +0800,
0.01,270,0.1,1,left,2,1,33,11,61.2651412000414,,,,,,,,,62.20081489998847,62.21543720003683,62.21543720003683,62.71535579999909,62.71535579999909,62.69899840001017,61.249326699995436,61.2651412000414,61.2651412000414,62.19990320003126,down,0,0.9328363999957219,None,,,,,,,,0d000721,001,2024-05-22_09h59.25.221,RDK,2023.2.3,59.999231990013016,2024-05-22 09h59.34.919239 +0800,
0.01,0,0.1,1,right,2,2,34,8,62.71535579999909,,,,,,,,,63.75022170005832,63.76531310006976,63.76531310006976,64.26502190006431,64.26502190006431,64.2491404999746,62.69939980003983,62.71535579999909,62.71535579999909,63.74938870000187,left,0,1.0187483000336215,None,,,,,,,,0d000721,001,2024-05-22_09h59.25.221,RDK,2023.2.3,59.999231990013016,2024-05-22 09h59.34.919239 +0800,
0.05,90,0.8,1,right,2,3,35,5,64.26502190006431,,,,,,,,,64.91699769999832,64.93202110007405,64.93202110007405,65.43184690002818,65.43184690002818,65.41572290007025,64.2496122000739,64.26502190006431,64.26502190006431,64.91612130007707,up,0,0.6374496000353247,None,,,,,,,,0d000721,001,2024-05-22_09h59.25.221,RDK,2023.2.3,59.999231990013016,2024-05-22 09h59.34.919239 +0800,
0.05,270,0.8,1,down,2,4,36,15,65.43184690002818,,,,,,,,,65.86707020003814,65.88165009999648,65.88165009999648,66.38198780000675,66.38198780000675,66.3658265999984,65.41613859997597,65.43184690002818,65.43184690002818,65.86626290006097,down,1,0.43077819992322475,None,,,,,,,,0d000721,001,2024-05-22_09h59.25.221,RDK,2023.2.3,59.999231990013016,2024-05-22 09h59.34.919239 +0800,
0.01,270,0.1,1,left,2,5,37,3,66.38198780000675,,,,,,,,,68.43196189997252,68.44784969999455,68.44784969999455,68.94780580000952,68.94780580000952,68.93138169997837,66.36622810002882,66.38198780000675,66.38198780000675,68.43173170008231,left,1,2.040342800086364,None,,,,,,,,0d000721,001,2024-05-22_09h59.25.221,RDK,2023.2.3,59.999231990013016,2024-05-22 09h59.34.919239 +0800,
0.05,270,0.8,1,down,2,6,38,7,68.94780580000952,,,,,,,,,69.44878760003485,69.46448109997436,69.46448109997436,69.96447680005804,69.96447680005804,69.94815549999475,68.93156830000225,68.94780580000952,68.94780580000952,69.44858389999717,down,1,0.48317699995823205,None,,,,,,,,0d000721,001,2024-05-22_09h59.25.221,RDK,2023.2.3,59.999231990013016,2024-05-22 09h59.34.919239 +0800,
0.01,90,0.1,1,up,2,7,39,9,69.96447680005804,,,,,,,,,70.66473600000609,70.68109299999196,70.68109299999196,71.18116939999163,71.18116939999163,71.1646977000637,69.94836280005984,69.96447680005804,69.96447680005804,70.66450710000936,right,0,0.6973658999195322,None,,,,,,,,0d000721,001,2024-05-22_09h59.25.221,RDK,2023.2.3,59.999231990013016,2024-05-22 09h59.34.919239 +0800,
0.05,0,0.8,1,up,2,8,40,12,71.18116939999163,,,,,,,,,71.8314587000059,71.84783870005049,71.84783870005049,72.34776030003559,72.34776030003559,72.33137909998186,71.16486340004485,71.18116939999163,71.18116939999163,71.83108270005323,right,0,0.6338980000000447,None,,,,,,,,0d000721,001,2024-05-22_09h59.25.221,RDK,2023.2.3,59.999231990013016,2024-05-22 09h59.34.919239 +0800,
0.01,180,0.1,1,down,2,9,41,10,72.34776030003559,,,,,,,,,73.19807759998366,73.21433230000548,73.21433230000548,73.71448580001015,73.71448580001015,73.69821679999586,72.33157300006133,72.34776030003559,72.34776030003559,73.19785620004404,left,0,0.8426580999512225,None,,,,,,,,0d000721,001,2024-05-22_09h59.25.221,RDK,2023.2.3,59.999231990013016,2024-05-22 09h59.34.919239 +0800,
0.01,90,0.1,1,up,2,10,42,1,73.71448580001015,,,,,,,,,77.39811830001418,77.41444399999455,77.41444399999455,77.91440060001332,77.91440060001332,77.89814449998084,73.69841579999775,73.71448580001015,73.71448580001015,77.39792610006407,down,0,3.668080599978566,None,,,,,,,,0d000721,001,2024-05-22_09h59.25.221,RDK,2023.2.3,59.999231990013016,2024-05-22 09h59.34.919239 +0800,
0.01,180,0.1,1,down,2,11,43,2,77.91440060001332,,,,,,,,,78.64826360007282,78.66462509997655,78.66462509997655,79.164503899985,79.164503899985,79.14814740000293,77.89833120000549,77.91440060001332,77.91440060001332,78.64804440003354,left,0,0.7319300000090152,None,,,,,,,,0d000721,001,2024-05-22_09h59.25.221,RDK,2023.2.3,59.999231990013016,2024-05-22 09h59.34.919239 +0800,
0.05,90,0.8,1,right,2,12,44,13,79.164503899985,,,,,,,,,79.68159659998491,79.69798950001132,79.69798950001132,80.19786259997636,80.19786259997636,80.18143840006087,79.14833060000092,79.164503899985,79.164503899985,79.68140550004318,up,0,0.5053493999876082,None,,,,,,,,0d000721,001,2024-05-22_09h59.25.221,RDK,2023.2.3,59.999231990013016,2024-05-22 09h59.34.919239 +0800,
0.05,0,0.8,1,up,2,13,45,4,80.19786259997636,,,,,,,,,80.58145140006673,80.59780280000996,80.59780280000996,81.09782310004812,81.09782310004812,81.08156940003391,80.18161880003754,80.19786259997636,80.19786259997636,80.58126930007711,right,0,0.36801570001989603,None,,,,,,,,0d000721,001,2024-05-22_09h59.25.221,RDK,2023.2.3,59.999231990013016,2024-05-22 09h59.34.919239 +0800,
0.05,180,0.8,1,left,2,14,46,14,81.09782310004812,,,,,,,,,81.48134699999355,81.49784630001523,81.49784630001523,81.99789210001472,81.99789210001472,81.98142289998941,81.08174370008055,81.09782310004812,81.09782310004812,81.48114160005935,down,0,0.37998889992013574,None,,,,,,,,0d000721,001,2024-05-22_09h59.25.221,RDK,2023.2.3,59.999231990013016,2024-05-22 09h59.34.919239 +0800,
0.01,0,0.1,1,right,2,15,47,0,81.99789210001472,,,,,,,,,82.71586250001565,82.73147250001784,82.73147250001784,83.23129350005183,83.23129350005183,83.21505210001487,81.9816936000716,81.99789210001472,81.99789210001472,82.7154233000474,right,1,0.7118160000536591,None,,,,,,,,0d000721,001,2024-05-22_09h59.25.221,RDK,2023.2.3,59.999231990013016,2024-05-22 09h59.34.919239 +0800,
0.05,90,0.8,1,right,3,0,48,5,83.23129350005183,,,,,,,,,83.64911780005787,83.6646277999971,83.6646277999971,84.16463540005498,84.16463540005498,84.14823280007113,83.21524519997183,83.23129350005183,83.23129350005183,83.64892010006588,up,0,0.40634300000965595,None,,,,,,,,0d000721,001,2024-05-22_09h59.25.221,RDK,2023.2.3,59.999231990013016,2024-05-22 09h59.34.919239 +0800,
0.01,180,0.1,1,down,3,1,49,2,84.16463540005498,,,,,,,,,84.84896700002719,84.86483380000573,84.86483380000573,85.36469630000647,85.36469630000647,85.34848060004879,84.14842520002276,84.16463540005498,84.16463540005498,84.84875830006786,left,0,0.6741302000591531,None,,,,,,,,0d000721,001,2024-05-22_09h59.25.221,RDK,2023.2.3,59.999231990013016,2024-05-22 09h59.34.919239 +0800,
0.01,180,0.1,1,down,3,2,50,10,85.36469630000647,,,,,,,,,85.83218180004042,85.84798409999348,85.84798409999348,86.34866780007724,86.34866780007724,86.33242810005322,85.34866650006734,85.36469630000647,85.36469630000647,85.8319715000689,left,0,0.46573269995860755,None,,,,,,,,0d000721,001,2024-05-22_09h59.25.221,RDK,2023.2.3,59.999231990013016,2024-05-22 09h59.34.919239 +0800,
0.05,0,0.8,1,up,3,3,51,4,86.34866780007724,,,,,,,,,86.95019750006031,86.96556270006113,86.96556270006113,87.46531660004985,87.46531660004985,87.44923570007086,86.33276730007492,86.34866780007724,86.34866780007724,86.94941560004372,right,0,0.5855919000459835,None,,,,,,,,0d000721,001,2024-05-22_09h59.25.221,RDK,2023.2.3,59.999231990013016,2024-05-22 09h59.34.919239 +0800,
0.01,270,0.1,1,left,3,4,52,3,87.46531660004985,,,,,,,,,88.30035480007064,88.3155860999832,88.3155860999832,88.81550879997667,88.81550879997667,88.79915910004638,87.44962720002513,87.46531660004985,87.46531660004985,88.29956970002968,up,0,0.8287964999908581,None,,,,,,,,0d000721,001,2024-05-22_09h59.25.221,RDK,2023.2.3,59.999231990013016,2024-05-22 09h59.34.919239 +0800,
0.01,90,0.1,1,up,3,5,53,9,88.81550879997667,,,,,,,,,89.51837349997368,89.53240590007044,89.53240590007044,90.03213880001567,90.03213880001567,90.01604280003812,88.79951949999668,88.81550879997667,88.81550879997667,89.51719949999824,left,0,0.6942657000618055,None,,,,,,,,0d000721,001,2024-05-22_09h59.25.221,RDK,2023.2.3,59.999231990013016,2024-05-22 09h59.34.919239 +0800,
0.05,0,0.8,1,up,3,6,54,12,90.03213880001567,,,,,,,,,90.48306230001617,90.49863330007065,90.49863330007065,90.99862730002496,90.99862730002496,90.98248430003878,90.01640640001278,90.03213880001567,90.03213880001567,90.48239440005273,right,0,0.43795319995842874,None,,,,,,,,0d000721,001,2024-05-22_09h59.25.221,RDK,2023.2.3,59.999231990013016,2024-05-22 09h59.34.919239 +0800,
0.05,180,0.8,1,left,3,7,55,6,90.99862730002496,,,,,,,,,91.41752420004923,91.43215960008092,91.43215960008092,91.93196850002278,91.93196850002278,91.91576870006975,90.98282959999051,90.99862730002496,90.99862730002496,91.41683390003163,left,1,0.41575200005900115,None,,,,,,,,0d000721,001,2024-05-22_09h59.25.221,RDK,2023.2.3,59.999231990013016,2024-05-22 09h59.34.919239 +0800,
0.05,270,0.8,1,down,3,8,56,7,91.93196850002278,,,,,,,,,92.41524020000361,92.4316691000713,92.4316691000713,92.93125570006669,92.93125570006669,92.91525459999684,91.91610130004119,91.93196850002278,91.93196850002278,92.41486540006008,down,1,0.47470260004047304,None,,,,,,,,0d000721,001,2024-05-22_09h59.25.221,RDK,2023.2.3,59.999231990013016,2024-05-22 09h59.34.919239 +0800,
0.05,270,0.8,1,down,3,9,57,15,92.93125570006669,,,,,,,,,93.39819069998339,93.41455340001266,93.41455340001266,93.91478750004899,93.91478750004899,93.898229500046,92.91546000004746,92.93125570006669,92.93125570006669,93.39796580001712,down,1,0.45128120004665107,None,,,,,,,,0d000721,001,2024-05-22_09h59.25.221,RDK,2023.2.3,59.999231990013016,2024-05-22 09h59.34.919239 +0800,
0.01,0,0.1,1,right,3,10,58,8,93.91478750004899,,,,,,,,,94.58214329998009,94.59798070008401,94.59798070008401,95.09786580002401,95.09786580002401,95.08151639997959,93.89841800008435,93.91478750004899,93.91478750004899,94.58182560000569,right,1,0.6517401000019163,None,,,,,,,,0d000721,001,2024-05-22_09h59.25.221,RDK,2023.2.3,59.999231990013016,2024-05-22 09h59.34.919239 +0800,
0.05,90,0.8,1,right,3,11,59,13,95.09786580002401,,,,,,,,,95.53191760007758,95.54787910007872,95.54787910007872,96.04805780004244,96.04805780004244,96.03143129998352,95.08177290007006,95.09786580002401,95.09786580002401,95.53174590005074,up,0,0.4280512999976054,None,,,,,,,,0d000721,001,2024-05-22_09h59.25.221,RDK,2023.2.3,59.999231990013016,2024-05-22 09h59.34.919239 +0800,
0.01,270,0.1,1,left,3,12,60,11,96.04805780004244,,,,,,,,,96.63136480003595,96.64791020005941,96.64791020005941,,,97.13139320001937,96.03158930002246,96.04805780004244,96.04805780004244,96.63119109999388,left,1,0.5670080999843776,None,,,,,,,,0d000721,001,2024-05-22_09h59.25.221,RDK,2023.2.3,59.999231990013016,2024-05-22 09h59.34.919239 +0800,
0.01,90,0.1,1,up,3,13,61,1,97.1479937999975,,,,,,,,,97.81499270000495,97.8312538000755,97.8312538000755,98.33122910000384,98.33122910000384,98.31475190003403,97.13157309999224,97.1479937999975,97.1479937999975,97.81464730005246,left,0,0.6504175000591204,None,,,,,,,,0d000721,001,2024-05-22_09h59.25.221,RDK,2023.2.3,59.999231990013016,2024-05-22 09h59.34.919239 +0800,
0.05,180,0.8,1,left,3,14,62,14,98.33122910000384,,,,,,,,,98.84905489999801,98.86470570007805,98.86470570007805,99.36469459999353,99.36469459999353,99.34838129999116,98.31492440006696,98.33122910000384,98.33122910000384,98.84884890005924,left,1,0.5066788999829441,None,,,,,,,,0d000721,001,2024-05-22_09h59.25.221,RDK,2023.2.3,59.999231990013016,2024-05-22 09h59.34.919239 +0800,
0.01,0,0.1,1,right,3,15,63,0,99.36469459999353,,,,,,,,,100.29902340006083,100.31471920001786,100.31471920001786,100.81533140002284,100.81533140002284,100.79928460007068,99.34858450002503,99.36469459999353,99.36469459999353,100.2988020000048,left,0,0.9294426999986172,None,,,,,,,,0d000721,001,2024-05-22_09h59.25.221,RDK,2023.2.3,59.999231990013016,2024-05-22 09h59.34.919239 +0800,
,,,,,,,,,,,,,,,,,,,,,,,,,,,,,,,,100.79935860005207,100.81533140002284,100.81533140002284,101.55001320003066,space,0.7272793999873102,None,0d000721,001,2024-05-22_09h59.25.221,RDK,2023.2.3,59.999231990013016,2024-05-22 09h59.34.919239 +0800,
